{
  "resourceType": "Bundle",
  "type": "transaction",
  "entry": [
    {
      "resource": {
        "resourceType": "Patient",
        "id": "ShireenAllen",
        "text": {
          "status": "generated",
          "div": "<div xmlns=\"http://www.w3.org/1999/xhtml\"><div class=\"hapiHeaderText\">Shireen <b>Allen </b></div><table class=\"hapiPropertyTable\"><tbody><tr><td>Date of birth</td><td><span>28 September 1975</span></td></tr></tbody></table></div>"
        },
        "active": true,
        "name": [
          {
            "text": "Shireen Allen",
            "family": "Allen",
            "given": [
              "Shireen"
            ]
          }
        ],
        "gender": "female",
        "birthDate": "1975-09-28"
      },
      "request": {
        "method": "PUT",
        "url": "Patient/ShireenAllen"
      }
    },
    {
      "resource": {
        "resourceType": "Encounter",
        "id": "ShireenAllen-Encounter1",
        "text": {
          "status": "generated",
          "div": "<div xmlns=\"http://www.w3.org/1999/xhtml\">2019-06-18: ambulatory encounter</div>"
        },
        "status": "finished",
        "class": {
          "system": "http://hl7.org/fhir/v3/ActCode",
          "code": "AMB"
        },
        "subject": {
          "reference": "Patient/ShireenAllen"
        },
        "period": {
          "start": "2019-06-18T00:00:00-07:00",
          "end": "2019-06-21T23:59:59-07:00"
        }
      },
      "request": {
        "method": "PUT",
        "url": "Encounter/ShireenAllen-Encounter1"
      }
    },
    {
      "resource": {
        "resourceType": "Observation",
        "id": "ShireenAllen-Observation1",
        "text": {
          "status": "generated",
          "div": "<div xmlns=\"http://www.w3.org/1999/xhtml\">2019-06-18: Blood pressure 143/68 mmHg</div>"
        },
        "status": "final",
        "category": [
          {
            "coding": [
              {
                "system": "http://hl7.org/fhir/observation-category",
                "code": "vital-signs",
                "display": "Vital Signs",
                "userSelected": false
              }
            ],
            "text": "Vital Signs"
          }
        ],
        "code": {
          "coding": [
            {
              "system": "http://loinc.org",
              "code": "55284-4",
              "display": "Blood pressure systolic and diastolic",
              "userSelected": false
            }
          ],
          "text": "Blood pressure systolic and diastolic"
        },
        "subject": {
          "reference": "Patient/ShireenAllen"
        },
        "context": {
          "reference": "Encounter/ShireenAllen-Encounter1"
        },
        "effectiveDateTime": "2019-06-18T23:16:00-07:00",
        "component": [
          {
            "code": {
              "coding": [
                {
                  "system": "http://loinc.org",
                  "code": "8480-6",
                  "display": "Systolic blood pressure",
                  "userSelected": false
                }
              ],
              "text": "Systolic blood pressure"
            },
            "valueQuantity": {
              "value": 143,
              "unit": "mmHg",
              "system": "http://unitsofmeasure.org",
              "code": "mm[Hg]"
            }
          },
          {
            "code": {
              "coding": [
                {
                  "system": "http://loinc.org",
                  "code": "8462-4",
                  "display": "Diastolic blood pressure",
                  "userSelected": false
                }
              ],
              "text": "Diastolic blood pressure"
            },
            "valueQuantity": {
              "value": 68,
              "unit": "mmHg",
              "system": "http://unitsofmeasure.org",
              "code": "mm[Hg]"
            }
          }
        ]
      },
      "request": {
        "method": "PUT",
        "url": "Observation/ShireenAllen-Observation1"
      }
    },
    {
      "resource": {
        "resourceType": "Observation",
        "id": "ShireenAllen-Observation2",
        "text": {
          "status": "generated",
          "div": "<div xmlns=\"http://www.w3.org/1999/xhtml\">2019-06-19: Blood pressure 126/64 mmHg</div>"
        },
        "status": "final",
        "category": [
          {
            "coding": [
              {
                "system": "http://hl7.org/fhir/observation-category",
                "code": "vital-signs",
                "display": "Vital Signs",
                "userSelected": false
              }
            ],
            "text": "Vital Signs"
          }
        ],
        "code": {
          "coding": [
            {
              "system": "http://loinc.org",
              "code": "55284-4",
              "display": "Blood pressure systolic and diastolic",
              "userSelected": false
            }
          ],
          "text": "Blood pressure systolic and diastolic"
        },
        "subject": {
          "reference": "Patient/ShireenAllen"
        },
        "context": {
          "reference": "Encounter/ShireenAllen-Encounter1"
        },
        "effectiveDateTime": "2019-06-19T01:00:00-07:00",
        "component": [
          {
            "code": {
              "coding": [
                {
                  "system": "http://loinc.org",
                  "code": "8480-6",
                  "display": "Systolic blood pressure",
                  "userSelected": false
                }
              ],
              "text": "Systolic blood pressure"
            },
            "valueQuantity": {
              "value": 126,
              "unit": "mmHg",
              "system": "http://unitsofmeasure.org",
              "code": "mm[Hg]"
            }
          },
          {
            "code": {
              "coding": [
                {
                  "system": "http://loinc.org",
                  "code": "8462-4",
                  "display": "Diastolic blood pressure",
                  "userSelected": false
                }
              ],
              "text": "Diastolic blood pressure"
            },
            "valueQuantity": {
              "value": 64,
              "unit": "mmHg",
              "system": "http://unitsofmeasure.org",
              "code": "mm[Hg]"
            }
          }
        ]
      },
      "request": {
        "method": "PUT",
        "url": "Observation/ShireenAllen-Observation2"
      }
    },
    {
      "resource": {
        "resourceType": "Observation",
        "id": "ShireenAllen-Observation3",
        "text": {
          "status": "generated",
          "div": "<div xmlns=\"http://www.w3.org/1999/xhtml\">2019-06-19: Blood pressure 109/62 mmHg</div>"
        },
        "status": "final",
        "category": [
          {
            "coding": [
              {
                "system": "http://hl7.org/fhir/observation-category",
                "code": "vital-signs",
                "display": "Vital Signs",
                "userSelected": false
              }
            ],
            "text": "Vital Signs"
          }
        ],
        "code": {
          "coding": [
            {
              "system": "http://loinc.org",
              "code": "55284-4",
              "display": "Blood pressure systolic and diastolic",
              "userSelected": false
            }
          ],
          "text": "Blood pressure systolic and diastolic"
        },
        "subject": {
          "reference": "Patient/ShireenAllen"
        },
        "context": {
          "reference": "Encounter/ShireenAllen-Encounter1"
        },
        "effectiveDateTime": "2019-06-19T06:03:00-07:00",
        "component": [
          {
            "code": {
              "coding": [
                {
                  "system": "http://loinc.org",
                  "code": "8480-6",
                  "display": "Systolic blood pressure",
                  "userSelected": false
                }
              ],
              "text": "Systolic blood pressure"
            },
            "valueQuantity": {
              "value": 109,
              "unit": "mmHg",
              "system": "http://unitsofmeasure.org",
              "code": "mm[Hg]"
            }
          },
          {
            "code": {
              "coding": [
                {
                  "system": "http://loinc.org",
                  "code": "8462-4",
                  "display": "Diastolic blood pressure",
                  "userSelected": false
                }
              ],
              "text": "Diastolic blood pressure"
            },
            "valueQuantity": {
              "value": 62,
              "unit": "mmHg",
              "system": "http://unitsofmeasure.org",
              "code": "mm[Hg]"
            }
          }
        ]
      },
      "request": {
        "method": "PUT",
        "url": "Observation/ShireenAllen-Observation3"
      }
    },
    {
      "resource": {
        "resourceType": "Observation",
        "id": "ShireenAllen-Observation4",
        "text": {
          "status": "generated",
          "div": "<div xmlns=\"http://www.w3.org/1999/xhtml\">2019-06-19: Blood pressure 126/68 mmHg</div>"
        },
        "status": "final",
        "category": [
          {
            "coding": [
              {
                "system": "http://hl7.org/fhir/observation-category",
                "code": "vital-signs",
                "display": "Vital Signs",
                "userSelected": false
              }
            ],
            "text": "Vital Signs"
          }
        ],
        "code": {
          "coding": [
            {
              "system": "http://loinc.org",
              "code": "55284-4",
              "display": "Blood pressure systolic and diastolic",
              "userSelected": false
            }
          ],
          "text": "Blood pressure systolic and diastolic"
        },
        "subject": {
          "reference": "Patient/ShireenAllen"
        },
        "context": {
          "reference": "Encounter/ShireenAllen-Encounter1"
        },
        "effectiveDateTime": "2019-06-19T08:15:00-07:00",
        "component": [
          {
            "code": {
              "coding": [
                {
                  "system": "http://loinc.org",
                  "code": "8480-6",
                  "display": "Systolic blood pressure",
                  "userSelected": false
                }
              ],
              "text": "Systolic blood pressure"
            },
            "valueQuantity": {
              "value": 126,
              "unit": "mmHg",
              "system": "http://unitsofmeasure.org",
              "code": "mm[Hg]"
            }
          },
          {
            "code": {
              "coding": [
                {
                  "system": "http://loinc.org",
                  "code": "8462-4",
                  "display": "Diastolic blood pressure",
                  "userSelected": false
                }
              ],
              "text": "Diastolic blood pressure"
            },
            "valueQuantity": {
              "value": 68,
              "unit": "mmHg",
              "system": "http://unitsofmeasure.org",
              "code": "mm[Hg]"
            }
          }
        ]
      },
      "request": {
        "method": "PUT",
        "url": "Observation/ShireenAllen-Observation4"
      }
    },
    {
      "resource": {
        "resourceType": "Observation",
        "id": "ShireenAllen-Observation5",
        "text": {
          "status": "generated",
          "div": "<div xmlns=\"http://www.w3.org/1999/xhtml\">2019-06-19: Blood pressure 120/64 mmHg</div>"
        },
        "status": "final",
        "category": [
          {
            "coding": [
              {
                "system": "http://hl7.org/fhir/observation-category",
                "code": "vital-signs",
                "display": "Vital Signs",
                "userSelected": false
              }
            ],
            "text": "Vital Signs"
          }
        ],
        "code": {
          "coding": [
            {
              "system": "http://loinc.org",
              "code": "55284-4",
              "display": "Blood pressure systolic and diastolic",
              "userSelected": false
            }
          ],
          "text": "Blood pressure systolic and diastolic"
        },
        "subject": {
          "reference": "Patient/ShireenAllen"
        },
        "context": {
          "reference": "Encounter/ShireenAllen-Encounter1"
        },
        "effectiveDateTime": "2019-06-19T12:00:00-07:00",
        "component": [
          {
            "code": {
              "coding": [
                {
                  "system": "http://loinc.org",
                  "code": "8480-6",
                  "display": "Systolic blood pressure",
                  "userSelected": false
                }
              ],
              "text": "Systolic blood pressure"
            },
            "valueQuantity": {
              "value": 120,
              "unit": "mmHg",
              "system": "http://unitsofmeasure.org",
              "code": "mm[Hg]"
            }
          },
          {
            "code": {
              "coding": [
                {
                  "system": "http://loinc.org",
                  "code": "8462-4",
                  "display": "Diastolic blood pressure",
                  "userSelected": false
                }
              ],
              "text": "Diastolic blood pressure"
            },
            "valueQuantity": {
              "value": 64,
              "unit": "mmHg",
              "system": "http://unitsofmeasure.org",
              "code": "mm[Hg]"
            }
          }
        ]
      },
      "request": {
        "method": "PUT",
        "url": "Observation/ShireenAllen-Observation5"
      }
    },
    {
      "resource": {
        "resourceType": "Observation",
        "id": "ShireenAllen-Observation6",
        "text": {
          "status": "generated",
          "div": "<div xmlns=\"http://www.w3.org/1999/xhtml\">2019-06-19: Blood pressure 147/89 mmHg</div>"
        },
        "status": "final",
        "category": [
          {
            "coding": [
              {
                "system": "http://hl7.org/fhir/observation-category",
                "code": "vital-signs",
                "display": "Vital Signs",
                "userSelected": false
              }
            ],
            "text": "Vital Signs"
          }
        ],
        "code": {
          "coding": [
            {
              "system": "http://loinc.org",
              "code": "55284-4",
              "display": "Blood pressure systolic and diastolic",
              "userSelected": false
            }
          ],
          "text": "Blood pressure systolic and diastolic"
        },
        "subject": {
          "reference": "Patient/ShireenAllen"
        },
        "context": {
          "reference": "Encounter/ShireenAllen-Encounter1"
        },
        "effectiveDateTime": "2019-06-19T16:24:00-07:00",
        "component": [
          {
            "code": {
              "coding": [
                {
                  "system": "http://loinc.org",
                  "code": "8480-6",
                  "display": "Systolic blood pressure",
                  "userSelected": false
                }
              ],
              "text": "Systolic blood pressure"
            },
            "valueQuantity": {
              "value": 147,
              "unit": "mmHg",
              "system": "http://unitsofmeasure.org",
              "code": "mm[Hg]"
            }
          },
          {
            "code": {
              "coding": [
                {
                  "system": "http://loinc.org",
                  "code": "8462-4",
                  "display": "Diastolic blood pressure",
                  "userSelected": false
                }
              ],
              "text": "Diastolic blood pressure"
            },
            "valueQuantity": {
              "value": 89,
              "unit": "mmHg",
              "system": "http://unitsofmeasure.org",
              "code": "mm[Hg]"
            }
          }
        ]
      },
      "request": {
        "method": "PUT",
        "url": "Observation/ShireenAllen-Observation6"
      }
    },
    {
      "resource": {
        "resourceType": "Observation",
        "id": "ShireenAllen-Observation7",
        "text": {
          "status": "generated",
          "div": "<div xmlns=\"http://www.w3.org/1999/xhtml\">2019-06-19: Blood pressure 119/65 mmHg</div>"
        },
        "status": "final",
        "category": [
          {
            "coding": [
              {
                "system": "http://hl7.org/fhir/observation-category",
                "code": "vital-signs",
                "display": "Vital Signs",
                "userSelected": false
              }
            ],
            "text": "Vital Signs"
          }
        ],
        "code": {
          "coding": [
            {
              "system": "http://loinc.org",
              "code": "55284-4",
              "display": "Blood pressure systolic and diastolic",
              "userSelected": false
            }
          ],
          "text": "Blood pressure systolic and diastolic"
        },
        "subject": {
          "reference": "Patient/ShireenAllen"
        },
        "context": {
          "reference": "Encounter/ShireenAllen-Encounter1"
        },
        "effectiveDateTime": "2019-06-19T21:41:00-07:00",
        "component": [
          {
            "code": {
              "coding": [
                {
                  "system": "http://loinc.org",
                  "code": "8480-6",
                  "display": "Systolic blood pressure",
                  "userSelected": false
                }
              ],
              "text": "Systolic blood pressure"
            },
            "valueQuantity": {
              "value": 119,
              "unit": "mmHg",
              "system": "http://unitsofmeasure.org",
              "code": "mm[Hg]"
            }
          },
          {
            "code": {
              "coding": [
                {
                  "system": "http://loinc.org",
                  "code": "8462-4",
                  "display": "Diastolic blood pressure",
                  "userSelected": false
                }
              ],
              "text": "Diastolic blood pressure"
            },
            "valueQuantity": {
              "value": 65,
              "unit": "mmHg",
              "system": "http://unitsofmeasure.org",
              "code": "mm[Hg]"
            }
          }
        ]
      },
      "request": {
        "method": "PUT",
        "url": "Observation/ShireenAllen-Observation7"
      }
    },
    {
      "resource": {
        "resourceType": "Observation",
        "id": "ShireenAllen-Observation8",
        "text": {
          "status": "generated",
          "div": "<div xmlns=\"http://www.w3.org/1999/xhtml\">2019-06-20: Blood pressure 130/60 mmHg</div>"
        },
        "status": "final",
        "category": [
          {
            "coding": [
              {
                "system": "http://hl7.org/fhir/observation-category",
                "code": "vital-signs",
                "display": "Vital Signs",
                "userSelected": false
              }
            ],
            "text": "Vital Signs"
          }
        ],
        "code": {
          "coding": [
            {
              "system": "http://loinc.org",
              "code": "55284-4",
              "display": "Blood pressure systolic and diastolic",
              "userSelected": false
            }
          ],
          "text": "Blood pressure systolic and diastolic"
        },
        "subject": {
          "reference": "Patient/ShireenAllen"
        },
        "context": {
          "reference": "Encounter/ShireenAllen-Encounter1"
        },
        "effectiveDateTime": "2019-06-20T06:52:00-07:00",
        "component": [
          {
            "code": {
              "coding": [
                {
                  "system": "http://loinc.org",
                  "code": "8480-6",
                  "display": "Systolic blood pressure",
                  "userSelected": false
                }
              ],
              "text": "Systolic blood pressure"
            },
            "valueQuantity": {
              "value": 130,
              "unit": "mmHg",
              "system": "http://unitsofmeasure.org",
              "code": "mm[Hg]"
            }
          },
          {
            "code": {
              "coding": [
                {
                  "system": "http://loinc.org",
                  "code": "8462-4",
                  "display": "Diastolic blood pressure",
                  "userSelected": false
                }
              ],
              "text": "Diastolic blood pressure"
            },
            "valueQuantity": {
              "value": 60,
              "unit": "mmHg",
              "system": "http://unitsofmeasure.org",
              "code": "mm[Hg]"
            }
          }
        ]
      },
      "request": {
        "method": "PUT",
        "url": "Observation/ShireenAllen-Observation8"
      }
    },
    {
      "resource": {
        "resourceType": "Observation",
        "id": "ShireenAllen-Observation9",
        "text": {
          "status": "generated",
          "div": "<div xmlns=\"http://www.w3.org/1999/xhtml\">2019-06-20: Blood pressure 151/88 mmHg</div>"
        },
        "status": "final",
        "category": [
          {
            "coding": [
              {
                "system": "http://hl7.org/fhir/observation-category",
                "code": "vital-signs",
                "display": "Vital Signs",
                "userSelected": false
              }
            ],
            "text": "Vital Signs"
          }
        ],
        "code": {
          "coding": [
            {
              "system": "http://loinc.org",
              "code": "55284-4",
              "display": "Blood pressure systolic and diastolic",
              "userSelected": false
            }
          ],
          "text": "Blood pressure systolic and diastolic"
        },
        "subject": {
          "reference": "Patient/ShireenAllen"
        },
        "context": {
          "reference": "Encounter/ShireenAllen-Encounter1"
        },
        "effectiveDateTime": "2019-06-20T10:10:00-07:00",
        "component": [
          {
            "code": {
              "coding": [
                {
                  "system": "http://loinc.org",
                  "code": "8480-6",
                  "display": "Systolic blood pressure",
                  "userSelected": false
                }
              ],
              "text": "Systolic blood pressure"
            },
            "valueQuantity": {
              "value": 151,
              "unit": "mmHg",
              "system": "http://unitsofmeasure.org",
              "code": "mm[Hg]"
            }
          },
          {
            "code": {
              "coding": [
                {
                  "system": "http://loinc.org",
                  "code": "8462-4",
                  "display": "Diastolic blood pressure",
                  "userSelected": false
                }
              ],
              "text": "Diastolic blood pressure"
            },
            "valueQuantity": {
              "value": 88,
              "unit": "mmHg",
              "system": "http://unitsofmeasure.org",
              "code": "mm[Hg]"
            }
          }
        ]
      },
      "request": {
        "method": "PUT",
        "url": "Observation/ShireenAllen-Observation9"
      }
    },
    {
      "resource": {
        "resourceType": "Observation",
        "id": "ShireenAllen-Observation10",
        "text": {
          "status": "generated",
          "div": "<div xmlns=\"http://www.w3.org/1999/xhtml\">2019-06-20: Blood pressure 144/84 mmHg</div>"
        },
        "status": "final",
        "category": [
          {
            "coding": [
              {
                "system": "http://hl7.org/fhir/observation-category",
                "code": "vital-signs",
                "display": "Vital Signs",
                "userSelected": false
              }
            ],
            "text": "Vital Signs"
          }
        ],
        "code": {
          "coding": [
            {
              "system": "http://loinc.org",
              "code": "55284-4",
              "display": "Blood pressure systolic and diastolic",
              "userSelected": false
            }
          ],
          "text": "Blood pressure systolic and diastolic"
        },
        "subject": {
          "reference": "Patient/ShireenAllen"
        },
        "context": {
          "reference": "Encounter/ShireenAllen-Encounter1"
        },
        "effectiveDateTime": "2019-06-20T12:03:00-07:00",
        "component": [
          {
            "code": {
              "coding": [
                {
                  "system": "http://loinc.org",
                  "code": "8480-6",
                  "display": "Systolic blood pressure",
                  "userSelected": false
                }
              ],
              "text": "Systolic blood pressure"
            },
            "valueQuantity": {
              "value": 144,
              "unit": "mmHg",
              "system": "http://unitsofmeasure.org",
              "code": "mm[Hg]"
            }
          },
          {
            "code": {
              "coding": [
                {
                  "system": "http://loinc.org",
                  "code": "8462-4",
                  "display": "Diastolic blood pressure",
                  "userSelected": false
                }
              ],
              "text": "Diastolic blood pressure"
            },
            "valueQuantity": {
              "value": 84,
              "unit": "mmHg",
              "system": "http://unitsofmeasure.org",
              "code": "mm[Hg]"
            }
          }
        ]
      },
      "request": {
        "method": "PUT",
        "url": "Observation/ShireenAllen-Observation10"
      }
    },
    {
      "resource": {
        "resourceType": "Observation",
        "id": "ShireenAllen-Observation11",
        "text": {
          "status": "generated",
          "div": "<div xmlns=\"http://www.w3.org/1999/xhtml\">2019-06-20: Blood pressure 131/81 mmHg</div>"
        },
        "status": "final",
        "category": [
          {
            "coding": [
              {
                "system": "http://hl7.org/fhir/observation-category",
                "code": "vital-signs",
                "display": "Vital Signs",
                "userSelected": false
              }
            ],
            "text": "Vital Signs"
          }
        ],
        "code": {
          "coding": [
            {
              "system": "http://loinc.org",
              "code": "55284-4",
              "display": "Blood pressure systolic and diastolic",
              "userSelected": false
            }
          ],
          "text": "Blood pressure systolic and diastolic"
        },
        "subject": {
          "reference": "Patient/ShireenAllen"
        },
        "context": {
          "reference": "Encounter/ShireenAllen-Encounter1"
        },
        "effectiveDateTime": "2019-06-20T12:06:00-07:00",
        "component": [
          {
            "code": {
              "coding": [
                {
                  "system": "http://loinc.org",
                  "code": "8480-6",
                  "display": "Systolic blood pressure",
                  "userSelected": false
                }
              ],
              "text": "Systolic blood pressure"
            },
            "valueQuantity": {
              "value": 131,
              "unit": "mmHg",
              "system": "http://unitsofmeasure.org",
              "code": "mm[Hg]"
            }
          },
          {
            "code": {
              "coding": [
                {
                  "system": "http://loinc.org",
                  "code": "8462-4",
                  "display": "Diastolic blood pressure",
                  "userSelected": false
                }
              ],
              "text": "Diastolic blood pressure"
            },
            "valueQuantity": {
              "value": 81,
              "unit": "mmHg",
              "system": "http://unitsofmeasure.org",
              "code": "mm[Hg]"
            }
          }
        ]
      },
      "request": {
        "method": "PUT",
        "url": "Observation/ShireenAllen-Observation11"
      }
    },
    {
      "resource": {
        "resourceType": "Observation",
        "id": "ShireenAllen-Observation12",
        "text": {
          "status": "generated",
          "div": "<div xmlns=\"http://www.w3.org/1999/xhtml\">2019-06-20: Blood pressure 134/74 mmHg</div>"
        },
        "status": "final",
        "category": [
          {
            "coding": [
              {
                "system": "http://hl7.org/fhir/observation-category",
                "code": "vital-signs",
                "display": "Vital Signs",
                "userSelected": false
              }
            ],
            "text": "Vital Signs"
          }
        ],
        "code": {
          "coding": [
            {
              "system": "http://loinc.org",
              "code": "55284-4",
              "display": "Blood pressure systolic and diastolic",
              "userSelected": false
            }
          ],
          "text": "Blood pressure systolic and diastolic"
        },
        "subject": {
          "reference": "Patient/ShireenAllen"
        },
        "context": {
          "reference": "Encounter/ShireenAllen-Encounter1"
        },
        "effectiveDateTime": "2019-06-20T17:02:00-07:00",
        "component": [
          {
            "code": {
              "coding": [
                {
                  "system": "http://loinc.org",
                  "code": "8480-6",
                  "display": "Systolic blood pressure",
                  "userSelected": false
                }
              ],
              "text": "Systolic blood pressure"
            },
            "valueQuantity": {
              "value": 134,
              "unit": "mmHg",
              "system": "http://unitsofmeasure.org",
              "code": "mm[Hg]"
            }
          },
          {
            "code": {
              "coding": [
                {
                  "system": "http://loinc.org",
                  "code": "8462-4",
                  "display": "Diastolic blood pressure",
                  "userSelected": false
                }
              ],
              "text": "Diastolic blood pressure"
            },
            "valueQuantity": {
              "value": 74,
              "unit": "mmHg",
              "system": "http://unitsofmeasure.org",
              "code": "mm[Hg]"
            }
          }
        ]
      },
      "request": {
        "method": "PUT",
        "url": "Observation/ShireenAllen-Observation12"
      }
    },
    {
      "resource": {
        "resourceType": "Observation",
        "id": "ShireenAllen-Observation13",
        "text": {
          "status": "generated",
          "div": "<div xmlns=\"http://www.w3.org/1999/xhtml\">2019-06-20: Blood pressure 139/76 mmHg</div>"
        },
        "status": "final",
        "category": [
          {
            "coding": [
              {
                "system": "http://hl7.org/fhir/observation-category",
                "code": "vital-signs",
                "display": "Vital Signs",
                "userSelected": false
              }
            ],
            "text": "Vital Signs"
          }
        ],
        "code": {
          "coding": [
            {
              "system": "http://loinc.org",
              "code": "55284-4",
              "display": "Blood pressure systolic and diastolic",
              "userSelected": false
            }
          ],
          "text": "Blood pressure systolic and diastolic"
        },
        "subject": {
          "reference": "Patient/ShireenAllen"
        },
        "context": {
          "reference": "Encounter/ShireenAllen-Encounter1"
        },
        "effectiveDateTime": "2019-06-20T21:25:00-07:00",
        "component": [
          {
            "code": {
              "coding": [
                {
                  "system": "http://loinc.org",
                  "code": "8480-6",
                  "display": "Systolic blood pressure",
                  "userSelected": false
                }
              ],
              "text": "Systolic blood pressure"
            },
            "valueQuantity": {
              "value": 139,
              "unit": "mmHg",
              "system": "http://unitsofmeasure.org",
              "code": "mm[Hg]"
            }
          },
          {
            "code": {
              "coding": [
                {
                  "system": "http://loinc.org",
                  "code": "8462-4",
                  "display": "Diastolic blood pressure",
                  "userSelected": false
                }
              ],
              "text": "Diastolic blood pressure"
            },
            "valueQuantity": {
              "value": 76,
              "unit": "mmHg",
              "system": "http://unitsofmeasure.org",
              "code": "mm[Hg]"
            }
          }
        ]
      },
      "request": {
        "method": "PUT",
        "url": "Observation/ShireenAllen-Observation13"
      }
    },
    {
      "resource": {
        "resourceType": "Observation",
        "id": "ShireenAllen-Observation14",
        "text": {
          "status": "generated",
          "div": "<div xmlns=\"http://www.w3.org/1999/xhtml\">2019-06-21: Blood pressure 116/62 mmHg</div>"
        },
        "status": "final",
        "category": [
          {
            "coding": [
              {
                "system": "http://hl7.org/fhir/observation-category",
                "code": "vital-signs",
                "display": "Vital Signs",
                "userSelected": false
              }
            ],
            "text": "Vital Signs"
          }
        ],
        "code": {
          "coding": [
            {
              "system": "http://loinc.org",
              "code": "55284-4",
              "display": "Blood pressure systolic and diastolic",
              "userSelected": false
            }
          ],
          "text": "Blood pressure systolic and diastolic"
        },
        "subject": {
          "reference": "Patient/ShireenAllen"
        },
        "context": {
          "reference": "Encounter/ShireenAllen-Encounter1"
        },
        "effectiveDateTime": "2019-06-21T06:16:00-07:00",
        "component": [
          {
            "code": {
              "coding": [
                {
                  "system": "http://loinc.org",
                  "code": "8480-6",
                  "display": "Systolic blood pressure",
                  "userSelected": false
                }
              ],
              "text": "Systolic blood pressure"
            },
            "valueQuantity": {
              "value": 116,
              "unit": "mmHg",
              "system": "http://unitsofmeasure.org",
              "code": "mm[Hg]"
            }
          },
          {
            "code": {
              "coding": [
                {
                  "system": "http://loinc.org",
                  "code": "8462-4",
                  "display": "Diastolic blood pressure",
                  "userSelected": false
                }
              ],
              "text": "Diastolic blood pressure"
            },
            "valueQuantity": {
              "value": 62,
              "unit": "mmHg",
              "system": "http://unitsofmeasure.org",
              "code": "mm[Hg]"
            }
          }
        ]
      },
      "request": {
        "method": "PUT",
        "url": "Observation/ShireenAllen-Observation14"
      }
    },
    {
      "resource": {
        "resourceType": "Observation",
        "id": "ShireenAllen-Observation15",
        "text": {
          "status": "generated",
          "div": "<div xmlns=\"http://www.w3.org/1999/xhtml\">2019-06-21: Blood pressure 145/72 mmHg</div>"
        },
        "status": "final",
        "category": [
          {
            "coding": [
              {
                "system": "http://hl7.org/fhir/observation-category",
                "code": "vital-signs",
                "display": "Vital Signs",
                "userSelected": false
              }
            ],
            "text": "Vital Signs"
          }
        ],
        "code": {
          "coding": [
            {
              "system": "http://loinc.org",
              "code": "55284-4",
              "display": "Blood pressure systolic and diastolic",
              "userSelected": false
            }
          ],
          "text": "Blood pressure systolic and diastolic"
        },
        "subject": {
          "reference": "Patient/ShireenAllen"
        },
        "context": {
          "reference": "Encounter/ShireenAllen-Encounter1"
        },
        "effectiveDateTime": "2019-06-21T10:05:00-07:00",
        "component": [
          {
            "code": {
              "coding": [
                {
                  "system": "http://loinc.org",
                  "code": "8480-6",
                  "display": "Systolic blood pressure",
                  "userSelected": false
                }
              ],
              "text": "Systolic blood pressure"
            },
            "valueQuantity": {
              "value": 145,
              "unit": "mmHg",
              "system": "http://unitsofmeasure.org",
              "code": "mm[Hg]"
            }
          },
          {
            "code": {
              "coding": [
                {
                  "system": "http://loinc.org",
                  "code": "8462-4",
                  "display": "Diastolic blood pressure",
                  "userSelected": false
                }
              ],
              "text": "Diastolic blood pressure"
            },
            "valueQuantity": {
              "value": 72,
              "unit": "mmHg",
              "system": "http://unitsofmeasure.org",
              "code": "mm[Hg]"
            }
          }
        ]
      },
      "request": {
        "method": "PUT",
        "url": "Observation/ShireenAllen-Observation15"
      }
    },
    {
      "resource": {
        "resourceType": "Observation",
        "id": "ShireenAllen-Observation16",
        "text": {
          "status": "generated",
          "div": "<div xmlns=\"http://www.w3.org/1999/xhtml\">2019-06-21: Blood pressure 118/66 mmHg</div>"
        },
        "status": "final",
        "category": [
          {
            "coding": [
              {
                "system": "http://hl7.org/fhir/observation-category",
                "code": "vital-signs",
                "display": "Vital Signs",
                "userSelected": false
              }
            ],
            "text": "Vital Signs"
          }
        ],
        "code": {
          "coding": [
            {
              "system": "http://loinc.org",
              "code": "55284-4",
              "display": "Blood pressure systolic and diastolic",
              "userSelected": false
            }
          ],
          "text": "Blood pressure systolic and diastolic"
        },
        "subject": {
          "reference": "Patient/ShireenAllen"
        },
        "context": {
          "reference": "Encounter/ShireenAllen-Encounter1"
        },
        "effectiveDateTime": "2019-06-21T15:04:00-07:00",
        "component": [
          {
            "code": {
              "coding": [
                {
                  "system": "http://loinc.org",
                  "code": "8480-6",
                  "display": "Systolic blood pressure",
                  "userSelected": false
                }
              ],
              "text": "Systolic blood pressure"
            },
            "valueQuantity": {
              "value": 118,
              "unit": "mmHg",
              "system": "http://unitsofmeasure.org",
              "code": "mm[Hg]"
            }
          },
          {
            "code": {
              "coding": [
                {
                  "system": "http://loinc.org",
                  "code": "8462-4",
                  "display": "Diastolic blood pressure",
                  "userSelected": false
                }
              ],
              "text": "Diastolic blood pressure"
            },
            "valueQuantity": {
              "value": 66,
              "unit": "mmHg",
              "system": "http://unitsofmeasure.org",
              "code": "mm[Hg]"
            }
          }
        ]
      },
      "request": {
        "method": "PUT",
        "url": "Observation/ShireenAllen-Observation16"
      }
    }
  ]
}
